File: XRD_shift_danny/data/79A64-130.xy
#Intensity_unit=cps
#Attenuator_coefficient=1.0000
3.0000 11280.7
3.0300 13434.1
3.0600 12289.2
3.0900 12982
3.1200 12657.2
3.1500 11647.1
3.1800 11465.4
3.2100 11349.2
3.2400 11286.6
3.2700 9762.17
3.3000 11470.2
3.3300 11195.4
3.3600 11673.9
3.3900 12517.7
3.4200 12733.9
3.4500 11630.6
3.4800 11193.9
3.5100 10866.6
3.5400 10023.2
3.5700 10691.3
3.6000 10317.7
3.6300 9444.68
3.6600 10709.3
3.6900 10340.5
3.7200 10071.2
3.7500 11085.8
3.7800 11442.5
3.8100 10945
3.8400 11718.4
3.8700 14551.8
3.9000 16732.8
3.9300 18157.3
3.9600 22218.3
3.9900 26416.2
4.0200 33060.7
4.0500 39813.9
4.0800 51664.7
4.1100 69333.6
4.1400 90094.6
4.1700 124176
4.2000 172466
4.2300 223898
4.2600 300331
4.2900 359167
4.3200 351206
4.3500 243379
4.3800 129870
4.4100 56634.4
4.4400 29772.3
4.4700 20925.2
4.5000 19180.8
4.5300 16385.8
4.5600 12773.5
4.5900 12385.6
4.6200 10434.7
4.6500 10449.9
4.6800 9942.98
4.7100 8894.37
4.7400 9393.43
4.7700 9634.54
4.8000 8588.43
4.8300 8223.3
4.8600 8004.31
4.8900 6814.3
4.9200 7337.48
4.9500 7215.19
4.9800 7374.11
5.0100 6969.73
5.0400 6221.77
5.0700 5755.23
5.1000 6684.63
5.1300 6335.89
5.1600 5726.02
5.1900 5504.17
5.2200 5678.72
5.2500 6608.93
5.2800 5673.65
5.3100 5054.91
5.3400 6119.8
5.3700 5665.23
5.4000 4999.23
5.4300 5160.68
5.4600 4914.85
5.4900 4764.31
5.5200 5203.02
5.5500 4196.09
5.5800 4726.71
5.6100 5021.85
5.6400 4496.49
5.6700 4403.42
5.7000 4278.4
5.7300 4170.97
5.7600 4703.99
5.7900 4072.34
5.8200 4100.49
5.8500 4635.69
5.8800 3797.12
5.9100 4076.9
5.9400 4038.74
5.9700 3485.62
6.0000 3635.63
6.0300 4936.91
6.0600 3819.63
6.0900 3870.42
6.1200 3828.47
6.1500 3740.2
6.1800 4060.54
6.2100 3736.94
6.2400 3677.48
6.2700 3993.53
6.3000 4257.06
6.3300 3701.9
6.3600 3852.7
6.3900 3395.09
6.4200 3976.61
6.4500 3723.61
6.4800 3568.62
6.5100 3695.88
6.5400 3828.52
6.5700 3674.03
6.6000 3368.63
6.6300 3609.17
6.6600 3361.01
6.6900 3943.53
6.7200 3707.11
6.7500 3342.07
6.7800 3405.82
6.8100 3581.2
6.8400 3590.39
6.8700 3590.91
6.9000 3428.88
6.9300 3485.36
6.9600 3363.48
6.9900 3861.29
7.0200 4482.48
7.0500 4267.03
7.0800 3785.46
7.1100 3223.03
7.1400 3706.19
7.1700 3553.37
7.2000 3376.07
7.2300 3106.88
7.2600 3308.91
7.2900 3193.92
7.3200 3345.55
7.3500 3044.26
7.3800 3121.78
7.4100 3326.77
7.4400 2875.46
7.4700 3386.84
7.5000 3128.68
7.5300 3680.84
7.5600 3114.93
7.5900 2992.72
7.6200 3120.05
7.6500 3150.01
7.6800 3444.52
7.7100 3409.19
7.7400 3481.88
7.7700 3671.42
7.8000 3460.88
7.8300 3629.84
7.8600 3527.93
7.8900 3842.2
7.9200 3839.86
7.9500 4585.99
7.9800 4331.11
8.0100 5520.69
8.0400 6919.5
8.0700 7485.39
8.1000 10160.6
8.1300 14246.3
8.1600 21643.5
8.1900 33592.3
8.2200 54042.6
8.2500 81213.4
8.2800 95803.4
8.3100 80369.9
8.3400 48637.2
8.3700 24312.4
8.4000 14349.9
8.4300 11893.5
8.4600 13295.9
8.4900 16477.4
8.5200 20898.1
8.5500 33803.5
8.5800 51467.2
8.6100 79476.7
8.6400 110207
8.6700 106055
8.7000 71927
8.7300 34331
8.7600 14409.9
8.7900 8634.06
8.8200 7954.85
8.8500 6434.47
8.8800 5826.89
8.9100 5942.1
8.9400 4868.09
8.9700 4615.05
9.0000 4751.66
9.0300 4524.01
9.0600 4462.9
9.0900 4572.64
9.1200 4452.16
9.1500 4787.53
9.1800 4848.35
9.2100 4430.08
9.2400 4188.7
9.2700 3777.26
9.3000 3366.59
9.3300 3395.18
9.3600 2948.24
9.3900 2994.64
9.4200 2980.36
9.4500 2710.75
9.4800 2817.61
9.5100 2820.9
9.5400 2489.85
9.5700 2506.79
9.6000 2600.9
9.6300 2988.08
9.6600 2908.61
9.6900 2848.76
9.7200 3027.61
9.7500 3051.04
9.7800 3334.8
9.8100 3854.41
9.8400 5435.22
9.8700 7636.73
9.9000 10755.6
9.9300 17953.4
9.9600 27557.8
9.9900 35779.6
10.0200 36685.6
10.0500 23025.2
10.0800 11821.3
10.1100 5677.56
10.1400 4322.56
10.1700 3609.03
10.2000 3164.38
10.2300 2564.41
10.2600 2769.43
10.2900 2670.78
10.3200 2451.38
10.3500 2293.74
10.3800 2329.22
10.4100 2136.93
10.4400 2232.38
10.4700 1946.23
10.5000 2195.77
10.5300 1936.71
10.5600 1798.91
10.5900 2194.62
10.6200 2422.01
10.6500 2216.86
10.6800 2515.46
10.7100 2484.8
10.7400 3068.45
10.7700 4092.83
10.8000 5515.05
10.8300 9052.19
10.8600 14675.9
10.8900 20497.7
10.9200 21647.8
10.9500 15064.2
10.9800 7390.49
11.0100 3385.85
11.0400 2545.84
11.0700 2505.29
11.1000 2077.44
11.1300 1671.17
11.1600 1850.44
11.1900 1731.75
11.2200 1615.08
11.2500 1452.21
11.2800 1637.31
11.3100 1558.56
11.3400 1409.37
11.3700 1531.02
11.4000 1483.87
11.4300 1320.08
11.4600 1483.96
11.4900 1398.7
11.5200 1309.38
11.5500 1562.54
11.5800 1383.09
11.6100 1323.63
11.6400 1321.83
11.6700 1348.71
11.7000 1226.82
11.7300 1145.77
11.7600 1306.11
11.7900 1453.15
11.8200 1408.59
11.8500 1315.13
11.8800 1314.57
11.9100 1288.16
11.9400 1218.36
11.9700 1301.62
12.0000 1116.93
12.0300 1408.83
12.0600 1036.51
12.0900 1243.93
12.1200 1246.09
12.1500 1203.31
12.1800 1135.19
12.2100 1374.29
12.2400 1275.5
12.2700 1300.31
12.3000 1345.72
12.3300 1165.21
12.3600 1382.15
12.3900 1247.7
12.4200 988.3450
12.4500 1082.79
12.4800 1085.63
12.5100 1205.73
12.5400 1290.88
12.5700 1117.92
12.6000 1008.36
12.6300 1071.15
12.6600 1057.67
12.6900 1216.95
12.7200 1225.53
12.7500 1202.9
12.7800 1261.71
12.8100 1244.24
12.8400 1436.96
12.8700 1573
12.9000 2278.7
12.9300 3280.14
12.9600 5047.11
12.9900 8175.99
13.0200 9378.65
13.0500 7874.74
13.0800 4933.47
13.1100 2527.3
13.1400 1516.74
13.1700 1281.42
13.2000 1216.13
13.2300 1084.21
13.2600 1119.13
13.2900 1080.13
13.3200 1218.14
13.3500 1124.08
13.3800 1108.76
13.4100 991.1825
13.4400 1052.48
13.4700 1032.19
13.5000 1005.13
13.5300 955.8475
13.5600 1001.54
13.5900 941.2775
13.6200 916.9900
13.6500 913.9175
13.6800 1047.04
13.7100 921.1925
13.7400 862.7650
13.7700 985.6775
13.8000 915.0150
13.8300 935.9550
13.8600 821.4025
13.8900 931.8950
13.9200 862.6575
13.9500 1062.14
13.9800 1126.58
14.0100 1112.79
14.0400 1066.05
14.0700 975.4500
14.1000 1559.51
14.1300 2182.71
14.1600 2809.5
14.1900 3319.05
14.2200 2196.36
14.2500 1699.69
14.2800 1169.85
14.3100 1125.37
14.3400 935.4250
14.3700 909.5325
14.4000 899.3500
14.4300 1013.58
14.4600 957.7450
14.4900 982.7600
14.5200 826.8400
14.5500 771.9050
14.5800 739.4275
14.6100 876.3575
14.6400 958.1175
14.6700 774.0125
14.7000 838.8250
14.7300 974.3375
14.7600 1137.48
14.7900 1282.72
14.8200 1593.68
14.8500 1523.85
14.8800 1333.22
14.9100 1003.34
14.9400 991.4550
14.9700 955.1375
15.0000 1031.59
15.0300 1016
15.0600 1145.34
15.0900 915.2675
15.1200 947.9725
15.1500 900.9300
15.1800 860.5100
15.2100 749.5975
15.2400 765.1525
15.2700 716.8150
15.3000 894.3000
15.3300 725.0700
15.3600 701.7700
15.3900 734.9800
15.4200 874.5000
15.4500 776.8425
15.4800 588.1575
15.5100 876.2075
15.5400 821.7575
15.5700 836.4050
15.6000 620.2150
15.6300 749.7750
15.6600 806.2375
15.6900 812.4800
15.7200 761.4625
15.7500 751.0650
15.7800 963.1300
15.8100 947.6600
15.8400 1171.45
15.8700 1302.68
15.9000 1175.61
15.9300 923.1300
15.9600 956.4200
15.9900 735.4225
16.0200 716.4650
16.0500 814.0525
16.0800 707.4425
16.1100 754.9000
16.1400 796.7775
16.1700 591.3200
16.2000 662.4625
16.2300 664.8450
16.2600 699.5700
16.2900 720.7775
16.3200 645.3725
16.3500 758.7075
16.3800 990.6350
16.4100 1092.29
16.4400 1258.98
16.4700 1272.96
16.5000 1065.12
16.5300 957.9125
16.5600 748.7275
16.5900 766.3850
16.6200 733.0475
16.6500 750.1450
16.6800 575.7700
16.7100 699.3250
16.7400 789.2150
16.7700 653.7525
16.8000 720.0150
16.8300 519.5275
16.8600 622.5975
16.8900 648.8450
16.9200 613.7475
16.9500 591.1450
16.9800 800.0000
17.0100 780.4175
17.0400 556.0825
17.0700 727.4050
17.1000 547.9125
17.1300 663.8675
17.1600 626.3025
17.1900 598.6050
17.2200 666.9225
17.2500 525.8975
17.2800 600.5350
17.3100 637.5450
17.3400 685.0875
17.3700 568.6525
17.4000 750.0925
17.4300 652.7675
17.4600 729.7325
17.4900 664.2850
17.5200 677.3525
17.5500 637.2450
17.5800 543.7275
17.6100 660.3675
17.6400 688.0875
17.6700 673.3400
17.7000 783.1750
17.7300 658.1150
17.7600 721.6950
17.7900 713.7225
17.8200 667.1350
17.8500 835.4450
17.8800 978.1525
17.9100 1323.26
17.9400 1569.38
17.9700 1373.47
18.0000 1096.3
18.0300 832.0525
18.0600 796.2975
18.0900 665.0000
18.1200 622.6175
18.1500 597.8325
18.1800 687.5250
18.2100 623.8850
18.2400 598.8975
18.2700 649.7350
18.3000 555.4375
18.3300 569.0350
18.3600 621.8825
18.3900 678.4025
18.4200 747.4050
18.4500 627.5300
18.4800 620.2925
18.5100 567.8725
18.5400 753.7800
18.5700 610.2250
18.6000 575.3275
18.6300 540.3375
18.6600 690.9825
18.6900 543.4375
18.7200 652.8350
18.7500 711.1375
18.7800 935.4125
18.8100 1017.07
18.8400 1006.49
18.8700 805.4275
18.9000 783.2050
18.9300 698.7375
18.9600 852.4650
18.9900 734.9125
19.0200 762.5775
19.0500 769.6650
19.0800 837.4425
19.1100 708.4200
19.1400 930.2350
19.1700 766.0625
19.2000 920.1350
19.2300 1588.15
19.2600 2506.3
19.2900 3907.31
19.3200 4151.64
19.3500 3476.59
19.3800 2274.93
19.4100 1457.94
19.4400 965.0250
19.4700 805.5400
19.5000 643.4225
19.5300 623.6750
19.5600 671.7425
19.5900 540.6175
19.6200 656.2300
19.6500 730.2550
19.6800 607.7700
19.7100 672.8850
19.7400 745.3875
19.7700 682.4750
19.8000 688.5775
19.8300 666.6575
19.8600 692.5025
19.8900 631.0000
19.9200 568.9750
19.9500 685.6075
19.9800 701.6325
20.0100 1095.87
20.0400 1062.53
20.0700 1656.5
20.1000 2189
20.1300 2394.41
20.1600 2216.73
20.1900 1528.11
20.2200 1144.21
20.2500 883.6900
20.2800 861.1825
20.3100 722.3925
20.3400 726.6925
20.3700 788.7775
20.4000 861.9850
20.4300 694.1675
20.4600 827.9300
20.4900 755.8825
20.5200 832.2700
20.5500 1205.93
20.5800 1547.56
20.6100 1382.04
20.6400 1623.37
20.6700 1784.29
20.7000 3024.14
20.7300 4584.6
20.7600 4933.33
20.7900 4042.16
20.8200 2429.29
20.8500 1456.73
20.8800 986.3350
20.9100 814.5875
20.9400 867.7450
20.9700 813.7200
21.0000 618.3675
21.0300 694.8425
21.0600 744.6500
21.0900 770.5250
21.1200 843.5700
21.1500 674.1725
21.1800 627.7700
21.2100 759.3675
21.2400 696.4025
21.2700 835.3700
21.3000 1176.75
21.3300 1603.71
21.3600 2006.64
21.3900 1833.32
21.4200 1358.51
21.4500 993.5325
21.4800 831.9325
21.5100 811.7175
21.5400 596.9225
21.5700 671.5900
21.6000 840.1800
21.6300 659.7950
21.6600 708.9125
21.6900 790.2575
21.7200 852.7675
21.7500 862.4050
21.7800 1138.66
21.8100 1278.92
21.8400 1128.53
21.8700 955.0150
21.9000 909.4300
21.9300 1014.26
21.9600 921.4725
21.9900 802.3000
22.0200 785.8125
22.0500 650.0000
22.0800 743.1525
22.1100 678.6425
22.1400 709.3550
22.1700 619.3400
22.2000 587.9850
22.2300 694.4975
22.2600 714.8325
22.2900 639.7300
22.3200 703.4625
22.3500 635.0125
22.3800 675.8150
22.4100 615.2600
22.4400 766.6675
22.4700 940.8150
22.5000 1242.12
22.5300 1374.32
22.5600 1142.33
22.5900 1069.88
22.6200 941.0600
22.6500 760.0800
22.6800 667.7800
22.7100 575.5300
22.7400 615.6575
22.7700 592.1450
22.8000 680.7525
22.8300 644.7650
22.8600 838.5025
22.8900 1250
22.9200 1547.76
22.9500 1812.34
22.9800 1868.46
23.0100 1645.15
23.0400 1278.06
23.0700 987.6100
23.1000 925.1950
23.1300 874.1525
23.1600 733.6200
23.1900 716.9025
23.2200 770.1400
23.2500 683.2000
23.2800 641.8700
23.3100 649.9700
23.3400 641.6550
23.3700 712.5175
23.4000 699.8750
23.4300 637.4550
23.4600 616.6675
23.4900 683.3325
23.5200 846.2450
23.5500 612.5950
23.5800 649.5675
23.6100 862.1375
23.6400 915.0600
23.6700 720.6875
23.7000 717.3050
23.7300 769.2825
23.7600 616.6675
23.7900 632.5400
23.8200 726.2650
23.8500 860.5700
23.8800 643.0850
23.9100 683.3325
23.9400 698.9500
23.9700 983.3325
24.0000 1037.21
24.0300 1450
24.0600 1656.36
24.0900 1419.2
24.1200 1247.53
24.1500 935.7400
24.1800 849.1175
24.2100 576.5225
24.2400 672.0050
24.2700 729.5700
24.3000 668.7525
24.3300 664.9500
24.3600 690.7825
24.3900 590.7575
24.4200 594.4325
24.4500 748.2350
24.4800 655.3750
24.5100 713.3900
24.5400 666.6675
24.5700 642.7300
24.6000 550.0000
24.6300 695.5450
24.6600 639.2100
24.6900 834.4100
24.7200 715.4775
24.7500 798.8750
24.7800 671.2750
24.8100 633.3325
24.8400 733.3325
24.8700 610.5225
24.9000 622.8500
24.9300 734.0750
24.9600 703.4700
24.9900 819.5100
25.0200 901.1000
25.0500 1561.27
25.0800 2041.43
25.1100 2559.5
25.1400 2116.37
25.1700 1693.01
25.2000 1296.97
25.2300 889.7325
25.2600 866.6275
25.2900 626.6275
25.3200 676.5250
25.3500 780.1825
25.3800 699.7825
25.4100 883.6150
25.4400 670.2750
25.4700 626.8300
25.5000 639.8100
25.5300 716.6675
25.5600 762.8525
25.5900 596.1350
25.6200 770.5825
25.6500 749.2075
25.6800 850.0000
25.7100 1086.48
25.7400 1380.2
25.7700 1171.88
25.8000 1117.78
25.8300 1172.12
25.8600 845.6750
25.8900 804.3750
25.9200 757.4850
25.9500 771.3325
25.9800 799.9525
26.0100 796.9775
26.0400 1004.63
26.0700 1173.97
26.1000 1685.8
26.1300 1825.58
26.1600 1665.87
26.1900 2210.78
26.2200 2361.59
26.2500 2591.24
26.2800 2251.36
26.3100 1873.25
26.3400 1351.01
26.3700 804.6450
26.4000 1001.92
26.4300 675.1975
26.4600 727.6725
26.4900 694.3650
26.5200 636.1375
26.5500 639.0050
26.5800 683.3450
26.6100 747.2325
26.6400 827.6825
26.6700 694.3000
26.7000 766.9625
26.7300 780.9900
26.7600 653.1500
26.7900 895.1425
26.8200 641.3675
26.8500 879.9925
26.8800 800.0000
26.9100 772.9250
26.9400 863.2250
26.9700 893.7900
27.0000 920.8100
27.0300 1499.18
27.0600 2152.73
27.0900 2873.08
27.1200 2734.7
27.1500 2862.69
27.1800 2790.91
27.2100 2860.72
27.2400 2515.84
27.2700 2147.51
27.3000 1649.35
27.3300 1360.62
27.3600 926.4600
27.3900 762.1775
27.4200 669.3825
27.4500 726.1025
27.4800 740.6400
27.5100 878.5375
27.5400 733.3325
27.5700 671.3850
27.6000 709.6275
27.6300 816.9975
27.6600 783.3325
27.6900 707.4325
27.7200 666.0700
27.7500 700.0000
27.7800 824.2525
27.8100 646.8775
27.8400 754.1525
27.8700 881.1025
27.9000 885.5525
27.9300 823.2850
27.9600 1159.66
27.9900 2016.05
28.0200 2949.87
28.0500 3469.82
28.0800 2888.81
28.1100 2199.62
28.1400 1776.71
28.1700 1224.91
28.2000 1006.21
28.2300 739.5700
28.2600 731.4025
28.2900 860.7425
28.3200 476.8725
28.3500 774.7800
28.3800 652.5575
28.4100 590.7000
28.4400 571.8900
28.4700 729.3775
28.5000 735.2975
28.5300 810.8100
28.5600 779.4550
28.5900 772.4450
28.6200 830.8625
28.6500 753.3600
28.6800 696.2225
28.7100 768.7550
28.7400 874.1175
28.7700 801.8650
28.8000 988.9750
28.8300 898.4200
28.8600 901.0925
28.8900 1457.2
28.9200 2039.3
28.9500 2673.76
28.9800 2710.57
29.0100 2688.58
29.0400 3002.78
29.0700 3304.61
29.1000 2397.01
29.1300 2132.72
29.1600 1743.08
29.1900 1358.26
29.2200 1086.65
29.2500 823.4550
29.2800 633.0025
29.3100 748.3800
29.3400 756.4325
29.3700 892.9050
29.4000 691.2475
29.4300 856.8825
29.4600 1395.79
29.4900 2315.45
29.5200 2750
29.5500 2554.51
29.5800 2203.21
29.6100 1719.89
29.6400 1112.22
29.6700 651.4675
29.7000 850.6575
29.7300 630.4475
29.7600 758.0875
29.7900 722.3350
29.8200 880.5250
29.8500 850.0325
29.8800 919.3050
29.9100 1005.47
29.9400 1154.06
29.9700 1157.28
30.0000 827.2900
30.0300 733.3325
30.0600 778.1225
30.0900 758.9275
30.1200 571.8400
30.1500 675.5175
30.1800 650.0000
30.2100 722.1850
30.2400 500.0000
30.2700 694.2525
30.3000 566.8075
30.3300 745.2500
30.3600 1020.41
30.3900 978.6850
30.4200 1081.04
30.4500 825.7600
30.4800 737.8300
30.5100 650.0000
30.5400 615.5675
30.5700 651.0850
30.6000 643.5625
30.6300 659.2450
30.6600 711.5225
30.6900 862.5275
30.7200 1016.67
30.7500 944.9525
30.7800 812.6800
30.8100 685.3000
30.8400 810.8400
30.8700 677.5850
30.9000 551.8900
30.9300 630.5350
30.9600 627.8125
30.9900 550.0000
31.0200 482.4400
31.0500 423.7200
31.0800 610.5850
31.1100 679.9100
31.1400 456.7475
31.1700 548.3400
31.2000 536.6050
31.2300 659.6600
31.2600 812.7050
31.2900 650.0000
31.3200 777.9650
31.3500 568.9275
31.3800 664.4425
31.4100 563.7525
31.4400 584.0500
31.4700 518.7750
31.5000 521.4975
31.5300 588.7525
31.5600 641.3075
31.5900 502.6075
31.6200 622.4175
31.6500 600.0000
31.6800 642.6400
31.7100 615.4650
31.7400 533.9200
31.7700 551.7250
31.8000 614.4175
31.8300 501.1000
31.8600 583.3325
31.8900 485.4300
31.9200 579.7550
31.9500 659.6900
31.9800 552.4275
32.0100 715.7200
32.0400 917.5875
32.0700 1082.88
32.1000 1149.13
32.1300 965.4025
32.1600 1013.4
32.1900 846.8325
32.2200 667.0500
32.2500 681.8525
32.2800 679.7575
32.3100 452.7575
32.3400 582.3375
32.3700 600.0000
32.4000 683.0275
32.4300 583.3325
32.4600 785.5775
32.4900 817.2025
32.5200 866.9225
32.5500 701.9375
32.5800 781.7275
32.6100 666.4500
32.6400 400.2050
32.6700 632.3775
32.7000 367.9125
32.7300 466.8325
32.7600 649.5425
32.7900 500.8375
32.8200 417.1750
32.8500 599.4300
32.8800 516.8700
32.9100 616.2250
32.9400 583.6350
32.9700 666.9175
33.0000 533.4825
33.0300 500.2950
33.0600 499.9025
33.0900 649.9650
33.1200 799.9950
33.1500 983.1900
33.1800 1382.82
33.2100 1266.79
33.2400 1250.48
33.2700 1083.92
33.3000 1066.74
33.3300 834.3400
33.3600 550.9400
33.3900 549.4150
33.4200 483.7225
33.4500 550.2850
33.4800 418.0675
33.5100 433.6700
33.5400 484.0600
33.5700 484.5000
33.6000 484.5775
33.6300 516.4475
33.6600 582.1675
33.6900 517.8950
33.7200 631.0050
33.7500 581.4325
33.7800 568.3725
33.8100 450.2975
33.8400 598.7600
33.8700 449.6775
33.9000 467.0025
33.9300 583.6825
33.9600 699.6375
33.9900 1159.92
34.0200 751.5500
34.0500 817.4675
34.0800 1262.53
34.1100 997.8700
34.1400 706.1475
34.1700 770.2825
34.2000 636.5875
34.2300 765.2325
34.2600 613.7225
34.2900 562.1350
34.3200 613.5675
34.3500 402.1175
34.3800 465.5825
34.4100 467.7775
34.4400 500.0000
34.4700 633.3325
34.5000 548.8125
34.5300 540.6175
34.5600 725.8950
34.5900 665.4000
34.6200 571.8325
34.6500 567.3250
34.6800 565.9950
34.7100 600.6850
34.7400 864.5750
34.7700 931.2025
34.8000 1157.99
34.8300 865.9300
34.8600 866.6675
34.8900 802.2875
34.9200 468.2175
34.9500 596.0600
34.9800 377.0800
35.0100 548.3725
35.0400 453.3075
35.0700 465.8275
35.1000 516.6675
35.1300 451.7325
35.1600 527.1825
35.1900 403.5675
35.2200 548.1900
35.2500 400.9175
35.2800 527.7500
35.3100 579.5600
35.3400 509.9700
35.3700 515.6975
35.4000 578.4200
35.4300 406.9675
35.4600 740.9225
35.4900 904.4075
35.5200 1131.27
35.5500 932.3800
35.5800 1051.06
35.6100 964.5200
35.6400 789.8525
35.6700 627.6625
35.7000 556.6750
35.7300 507.8775
35.7600 603.4150
35.7900 396.5450
35.8200 467.8300
35.8500 532.1550
35.8800 448.8100
35.9100 668.8900
35.9400 806.9350
35.9700 1291.39
36.0000 1248.76
36.0300 1200.91
36.0600 1011.42
36.0900 1010.25
36.1200 832.2025
36.1500 712.7425
36.1800 630.6925
36.2100 666.6675
36.2400 540.0675
36.2700 830.6125
36.3000 976.4675
36.3300 833.3325
36.3600 1140.2
36.3900 1097.17
36.4200 788.0450
36.4500 870.3900
36.4800 794.1950
36.5100 782.7750
36.5400 558.8650
36.5700 597.0200
36.6000 392.3550
36.6300 493.9325
36.6600 580.2750
36.6900 525.9250
36.7200 486.4450
36.7500 461.9600
36.7800 592.0900
36.8100 450.0000
36.8400 446.2000
36.8700 478.4700
36.9000 444.7750
36.9300 383.3325
36.9600 588.3150
36.9900 598.3975
37.0200 856.7475
37.0500 651.7000
37.0800 678.1950
37.1100 668.3925
37.1400 528.1150
37.1700 533.3325
37.2000 557.8375
37.2300 485.1125
37.2600 462.5425
37.2900 505.8375
37.3200 555.7575
37.3500 518.6825
37.3800 501.8450
37.4100 548.1950
37.4400 761.0550
37.4700 944.3475
37.5000 881.4375
37.5300 718.5775
37.5600 801.9225
37.5900 679.4600
37.6200 641.1325
37.6500 551.9625
37.6800 811.5975
37.7100 882.0975
37.7400 734.6875
37.7700 770.6975
37.8000 758.5525
37.8300 673.1225
37.8600 693.6100
37.8900 616.6675
37.9200 391.6600
37.9500 454.1900
37.9800 578.9200
38.0100 393.6375
38.0400 420.9350
38.0700 420.9625
38.1000 497.8400
38.1300 524.6375
38.1600 506.5625
38.1900 468.8675
38.2200 442.1875
38.2500 506.6800
38.2800 500.0000
38.3100 426.5725
38.3400 390.1325
38.3700 483.3325
38.4000 635.6275
38.4300 614.3600
38.4600 736.5125
38.4900 841.0050
38.5200 952.3450
38.5500 971.2350
38.5800 1000.06
38.6100 754.7375
38.6400 723.8650
38.6700 628.7275
38.7000 561.8150
38.7300 414.6325
38.7600 466.1675
38.7900 402.4650
38.8200 561.7100
38.8500 521.6500
38.8800 548.3650
38.9100 481.7800
38.9400 457.5950
38.9700 642.3650
39.0000 648.7575
39.0300 528.1900
39.0600 511.7700
39.0900 608.8700
39.1200 802.6125
39.1500 818.3775
39.1800 801.8025
39.2100 755.3025
39.2400 758.6700
39.2700 809.8225
39.3000 494.1000
39.3300 717.1025
39.3600 324.4675
39.3900 466.3925
39.4200 636.4700
39.4500 563.7925
39.4800 447.1575
39.5100 516.6225
39.5400 458.2700
39.5700 419.4775
39.6000 427.9675
39.6300 500.0000
39.6600 500.0000
39.6900 516.1400
39.7200 693.6350
39.7500 591.3225
39.7800 702.1375
39.8100 924.5750
39.8400 1053.86
39.8700 1012.79
39.9000 751.0900
39.9300 854.1425
39.9600 721.3875
39.9900 733.3325
40.0000 733.3325