File: XRD_shift_danny/data/MOF808.xy
#Intensity_unit=cps
#Attenuator_coefficient=1.0000
3.0000 9193.94
3.0300 8741.97
3.0600 7586.19
3.0900 8972.28
3.1200 8167.92
3.1500 8585
3.1800 8281.84
3.2100 8299.08
3.2400 7708.07
3.2700 7087.26
3.3000 6889.66
3.3300 6897.1
3.3600 7796.35
3.3900 7893.69
3.4200 6555.26
3.4500 6021.52
3.4800 7221.76
3.5100 6529.06
3.5400 6569.96
3.5700 6207.65
3.6000 5546.88
3.6300 5864.12
3.6600 5797.03
3.6900 6121.2
3.7200 6524.3
3.7500 7334.95
3.7800 7194.41
3.8100 6795.31
3.8400 6464.9
3.8700 8093.38
3.9000 8279.48
3.9300 9671.28
3.9600 11282.9
3.9900 12757.7
4.0200 16335.1
4.0500 18981.9
4.0800 24368.6
4.1100 31040.3
4.1400 42747.5
4.1700 54499.8
4.2000 65600.7
4.2300 93678.5
4.2600 125647
4.2900 157348
4.3200 201164
4.3500 247619
4.3800 289523
4.4100 304200
4.4400 264234
4.4700 150999
4.5000 60297
4.5300 28966.4
4.5600 19569
4.5900 15794.3
4.6200 12076.1
4.6500 11476.4
4.6800 9621.25
4.7100 8899.46
4.7400 8565.52
4.7700 6938.48
4.8000 6390.67
4.8300 5362.07
4.8600 5736.82
4.8900 5840.02
4.9200 5897.64
4.9500 5574.61
4.9800 5563.22
5.0100 4740.98
5.0400 4888.62
5.0700 4354.31
5.1000 5114.59
5.1300 4304.31
5.1600 4255.3
5.1900 4109.19
5.2200 4427.48
5.2500 3778.13
5.2800 3256.93
5.3100 3311.33
5.3400 3569.81
5.3700 3231.32
5.4000 3486.18
5.4300 2751.93
5.4600 2724.39
5.4900 2862.34
5.5200 2739.24
5.5500 2960.83
5.5800 2634.19
5.6100 2917.48
5.6400 2775.67
5.6700 3331.86
5.7000 2663.83
5.7300 2532.53
5.7600 2989.07
5.7900 2689.79
5.8200 2691.38
5.8500 2483.08
5.8800 2593.77
5.9100 2531.72
5.9400 2406.45
5.9700 2207.93
6.0000 2408.93
6.0300 2299.25
6.0600 2138.64
6.0900 2676.12
6.1200 1946.64
6.1500 2240.87
6.1800 2078.95
6.2100 2163.15
6.2400 2289.04
6.2700 1908.45
6.3000 1948.69
6.3300 2102.41
6.3600 2201.04
6.3900 2148.66
6.4200 1814.22
6.4500 2261.16
6.4800 2525.64
6.5100 1659.89
6.5400 2359.6
6.5700 1847.83
6.6000 2384.44
6.6300 2026.42
6.6600 2006.54
6.6900 1896.15
6.7200 2302.64
6.7500 1852.75
6.7800 2057.99
6.8100 2126.69
6.8400 2663.32
6.8700 2042.73
6.9000 2318.3
6.9300 2129.39
6.9600 2330.37
6.9900 1954.92
7.0200 2341.94
7.0500 2596.04
7.0800 2928.79
7.1100 3407.7
7.1400 3215.55
7.1700 4204.67
7.2000 3136.39
7.2300 3133.4
7.2600 3153.77
7.2900 2815.6
7.3200 2493.26
7.3500 2756.04
7.3800 2222.68
7.4100 2376.7
7.4400 2375.69
7.4700 2428.23
7.5000 2256.93
7.5300 2187.34
7.5600 2265.07
7.5900 1993.36
7.6200 2636.43
7.6500 2087.16
7.6800 2158.81
7.7100 2235.42
7.7400 2001.98
7.7700 2003.59
7.8000 2410.03
7.8300 2412.72
7.8600 2430.93
7.8900 2671.24
7.9200 2530.13
7.9500 2544.45
7.9800 2783.92
8.0100 2967.7
8.0400 3317.38
8.0700 3549.76
8.1000 4919.95
8.1300 6344.49
8.1600 7923.29
8.1900 11021.7
8.2200 15677.3
8.2500 24302.1
8.2800 36532.2
8.3100 47661.7
8.3400 60598.8
8.3700 72175.1
8.4000 68746.4
8.4300 48429.4
8.4600 24294.4
8.4900 13173.4
8.5200 10481.6
8.5500 12428.5
8.5800 16729.8
8.6100 23638.7
8.6400 35497.6
8.6700 48851.3
8.7000 65145.7
8.7300 80602.9
8.7600 85115.1
8.7900 67746.8
8.8200 34158.9
8.8500 13680.3
8.8800 7462.54
8.9100 5151.46
8.9400 5320.15
8.9700 4359.25
9.0000 4439.06
9.0300 3879.09
9.0600 4037.45
9.0900 3578.85
9.1200 3315.74
9.1500 2899.25
9.1800 3001.36
9.2100 2469.82
9.2400 2558.33
9.2700 2491.62
9.3000 2366.99
9.3300 2072.2
9.3600 2171.56
9.3900 2147.6
9.4200 1984.48
9.4500 1969.64
9.4800 1918.08
9.5100 1842.33
9.5400 1987.81
9.5700 1945.48
9.6000 2112.59
9.6300 1875.03
9.6600 2260.45
9.6900 2214.98
9.7200 1898.37
9.7500 2012.77
9.7800 1900.97
9.8100 2547.66
9.8400 2763.82
9.8700 3429.66
9.9000 3739.39
9.9300 5342.73
9.9600 7680.52
9.9900 10963.7
10.0200 16443.5
10.0500 21381.7
10.0800 24770
10.1100 25220.2
10.1400 19632.7
10.1700 11092.8
10.2000 5311.71
10.2300 3292.53
10.2600 2671.68
10.2900 2409.78
10.3200 2101.16
10.3500 2185.39
10.3800 1938.82
10.4100 1783.92
10.4400 1682.47
10.4700 1571.38
10.5000 1525.3
10.5300 1532.23
10.5600 1387.58
10.5900 1436.15
10.6200 1502.79
10.6500 1844.76
10.6800 1767.67
10.7100 1502.36
10.7400 1971.18
10.7700 1686.54
10.8000 2265.46
10.8300 2768.05
10.8600 4240.16
10.8900 5701.5
10.9200 8477.6
10.9500 10986.5
10.9800 13074
11.0100 13428.5
11.0400 10532.2
11.0700 6112.27
11.1000 3111.9
11.1300 1855.34
11.1600 1787.08
11.1900 1340.06
11.2200 1360.93
11.2500 1357.32
11.2800 1496.32
11.3100 1224.38
11.3400 1311.28
11.3700 1323.32
11.4000 1261.34
11.4300 1187.94
11.4600 1196.56
11.4900 1053.42
11.5200 877.4300
11.5500 947.9700
11.5800 906.8550
11.6100 881.0500
11.6400 766.3200
11.6700 954.7750
11.7000 879.0750
11.7300 989.5725
11.7600 960.4625
11.7900 966.4750
11.8200 926.6125
11.8500 970.6025
11.8800 807.4025
11.9100 959.5950
11.9400 957.1275
11.9700 842.0825
12.0000 1030.73
12.0300 795.1025
12.0600 877.8100
12.0900 940.9150
12.1200 711.1050
12.1500 797.8325
12.1800 1002.31
12.2100 912.3375
12.2400 928.3900
12.2700 1004.68
12.3000 801.7300
12.3300 1018.4
12.3600 1006.69
12.3900 953.9825
12.4200 901.5300
12.4500 826.3150
12.4800 745.4400
12.5100 772.5275
12.5400 814.7550
12.5700 818.4575
12.6000 753.7650
12.6300 865.7025
12.6600 838.9925
12.6900 799.2950
12.7200 983.6425
12.7500 930.7825
12.7800 866.8175
12.8100 940.7450
12.8400 1055.57
12.8700 771.0675
12.9000 1238.05
12.9300 1059.72
12.9600 1849.99
12.9900 2526.42
13.0200 3228.65
13.0500 4679.63
13.0800 5436.34
13.1100 6359.75
13.1400 5426.93
13.1700 3422.55
13.2000 2081.91
13.2300 1276.28
13.2600 995.6950
13.2900 884.2700
13.3200 760.4875
13.3500 828.1700
13.3800 930.9225
13.4100 815.1875
13.4400 814.4850
13.4700 705.3000
13.5000 716.1175
13.5300 803.8900
13.5600 757.2225
13.5900 780.6375
13.6200 811.9875
13.6500 1005.31
13.6800 718.5600
13.7100 875.2125
13.7400 783.6225
13.7700 747.6075
13.8000 621.8400
13.8300 642.6000
13.8600 776.4475
13.8900 774.7225
13.9200 896.2550
13.9500 793.7750
13.9800 725.0675
14.0100 556.5950
14.0400 766.2125
14.0700 797.8900
14.1000 1017.14
14.1300 1004.58
14.1600 1254.09
14.1900 1724.43
14.2200 2079.74
14.2500 2690.46
14.2800 2415.93
14.3100 2092.26
14.3400 1631.03
14.3700 1010.87
14.4000 825.6100
14.4300 776.4000
14.4600 561.6025
14.4900 742.4400
14.5200 715.0200
14.5500 663.9300
14.5800 621.3400
14.6100 629.5350
14.6400 614.5475
14.6700 847.9975
14.7000 701.3325
14.7300 781.7775
14.7600 751.9125
14.7900 843.8325
14.8200 919.9700
14.8500 875.7950
14.8800 1333.22
14.9100 1295.16
14.9400 1366.2
14.9700 1207.69
15.0000 964.4325
15.0300 798.6525
15.0600 970.7225
15.0900 821.7575
15.1200 982.3800
15.1500 1025.64
15.1800 899.2775
15.2100 604.5075
15.2400 650.2750
15.2700 602.1125
15.3000 513.0475
15.3300 548.0475
15.3600 581.0850
15.3900 599.0350
15.4200 596.2075
15.4500 657.3550
15.4800 660.0825
15.5100 616.3900
15.5400 715.5475
15.5700 510.1850
15.6000 578.5725
15.6300 510.1500
15.6600 684.7350
15.6900 674.4125
15.7200 514.2600
15.7500 757.0800
15.7800 662.3625
15.8100 708.6850
15.8400 727.0250
15.8700 775.8575
15.9000 661.0475
15.9300 864.3425
15.9600 864.9800
15.9900 783.1150
16.0200 868.2475
16.0500 806.5700
16.0800 757.8225
16.1100 613.9050
16.1400 668.4800
16.1700 551.4250
16.2000 686.4925
16.2300 622.8700
16.2600 592.7325
16.2900 613.2825
16.3200 628.7675
16.3500 597.0550
16.3800 716.0575
16.4100 649.4850
16.4400 670.5450
16.4700 920.7450
16.5000 992.1875
16.5300 1122.56
16.5600 956.1300
16.5900 830.8800
16.6200 759.4900
16.6500 693.8825
16.6800 681.3100
16.7100 563.4625
16.7400 703.8325
16.7700 683.1375
16.8000 512.6200
16.8300 506.8875
16.8600 501.8925
16.8900 573.1625
16.9200 545.9850
16.9500 482.0825
16.9800 547.1800
17.0100 543.1625
17.0400 589.6100
17.0700 562.7450
17.1000 634.8625
17.1300 605.9725
17.1600 546.0125
17.1900 534.3575
17.2200 444.5175
17.2500 478.1650
17.2800 520.8575
17.3100 634.2050
17.3400 479.6225
17.3700 535.5500
17.4000 463.3250
17.4300 465.9375
17.4600 569.0275
17.4900 553.6500
17.5200 534.7175
17.5500 533.9725
17.5800 589.9425
17.6100 649.7550
17.6400 546.4200
17.6700 584.5250
17.7000 562.8275
17.7300 456.4400
17.7600 522.6800
17.7900 544.4825
17.8200 639.8675
17.8500 504.6550
17.8800 522.5825
17.9100 875.2775
17.9400 1101.07
17.9700 1155.89
18.0000 1318.86
18.0300 1335.45
18.0600 1346.97
18.0900 970.5050
18.1200 878.3300
18.1500 798.4175
18.1800 556.9225
18.2100 639.9175
18.2400 698.5025
18.2700 570.7350
18.3000 574.5225
18.3300 677.7400
18.3600 607.5100
18.3900 577.7400
18.4200 504.0625
18.4500 503.6750
18.4800 670.1175
18.5100 624.2850
18.5400 545.8475
18.5700 517.1800
18.6000 590.5625
18.6300 557.6250
18.6600 509.3625
18.6900 554.3000
18.7200 746.8450
18.7500 605.0725
18.7800 600.0325
18.8100 635.6925
18.8400 702.1500
18.8700 849.8950
18.9000 905.3275
18.9300 759.5100
18.9600 740.2575
18.9900 630.6175
19.0200 538.2875
19.0500 562.9875
19.0800 610.4925
19.1100 694.0425
19.1400 822.6125
19.1700 640.5925
19.2000 760.6600
19.2300 967.9600
19.2600 1186.81
19.2900 1435.15
19.3200 1959.91
19.3500 2710.04
19.3800 3123.89
19.4100 3033.86
19.4400 2215.94
19.4700 1495.18
19.5000 1103.47
19.5300 923.4975
19.5600 709.9175
19.5900 741.7000
19.6200 662.0675
19.6500 701.7675
19.6800 500.3875
19.7100 537.7750
19.7400 620.4750
19.7700 503.4575
19.8000 610.8000
19.8300 481.4200
19.8600 647.5875
19.8900 513.7700
19.9200 624.5875
19.9500 535.3225
19.9800 628.8150
20.0100 673.9100
20.0400 778.9825
20.0700 944.8725
20.1000 1133.37
20.1300 1433.27
20.1600 1594.16
20.1900 2022.59
20.2200 1789.68
20.2500 1500.54
20.2800 1227.85
20.3100 1055.73
20.3400 783.3325
20.3700 877.8900
20.4000 671.7225
20.4300 688.3375
20.4600 676.1175
20.4900 795.1000
20.5200 729.0175
20.5500 778.5375
20.5800 894.0375
20.6100 963.4225
20.6400 1213.23
20.6700 1363.03
20.7000 1656.07
20.7300 2025.98
20.7600 2300.21
20.7900 2899.96
20.8200 3106.17
20.8500 3190.49
20.8800 2874.67
20.9100 2048.94
20.9400 1181.37
20.9700 720.7325
21.0000 751.1575
21.0300 730.5675
21.0600 751.2350
21.0900 682.0600
21.1200 660.2350
21.1500 678.2275
21.1800 660.1850
21.2100 701.4300
21.2400 666.6675
21.2700 784.8400
21.3000 636.8275
21.3300 951.5850
21.3600 1020.05
21.3900 1225.01
21.4200 1378.35
21.4500 1528.36
21.4800 1488.3
21.5100 1065.36
21.5400 783.3325
21.5700 733.3325
21.6000 735.2700
21.6300 571.5650
21.6600 602.0150
21.6900 640.2575
21.7200 634.0075
21.7500 659.6900
21.7800 799.5050
21.8100 876.3050
21.8400 933.6450
21.8700 1257.3
21.9000 995.0875
21.9300 1023.76
21.9600 1090.54
21.9900 909.4825
22.0200 811.7075
22.0500 1052.2
22.0800 723.9275
22.1100 807.7900
22.1400 676.6150
22.1700 719.3400
22.2000 614.7275
22.2300 636.0850
22.2600 571.2925
22.2900 628.7200
22.3200 559.2000
22.3500 605.8125
22.3800 634.6500
22.4100 627.1950
22.4400 645.4525
22.4700 700.0000
22.5000 803.1000
22.5300 862.1575
22.5600 870.6225
22.5900 1177.58
22.6200 1284.16
22.6500 963.1750
22.6800 1151.11
22.7100 876.7800
22.7400 572.0950
22.7700 685.8250
22.8000 605.3000
22.8300 656.0875
22.8600 627.8100
22.8900 862.3125
22.9200 1009.38
22.9500 806.2725
22.9800 1164.14
23.0100 1308.06
23.0400 1417.16
23.0700 1174.78
23.1000 1165.88
23.1300 991.1575
23.1600 875.1450
23.1900 720.8925
23.2200 779.3050
23.2500 653.9325
23.2800 745.8950
23.3100 616.6675
23.3400 679.1925
23.3700 608.3700
23.4000 566.2950
23.4300 491.4025
23.4600 558.2200
23.4900 566.6675
23.5200 483.3325
23.5500 770.7375
23.5800 762.1750
23.6100 586.4100
23.6400 885.4750
23.6700 800.5875
23.7000 666.0275
23.7300 643.9375
23.7600 851.4825
23.7900 755.5525
23.8200 795.4625
23.8500 541.2200
23.8800 686.1725
23.9100 587.2500
23.9400 686.1900
23.9700 925.5500
24.0000 973.2725
24.0300 1091.07
24.0600 1175.72
24.0900 1253.84
24.1200 1581.98
24.1500 1336.15
24.1800 1142.4
24.2100 996.2100
24.2400 899.3475
24.2700 765.0525
24.3000 614.5800
24.3300 359.4975
24.3600 733.3325
24.3900 666.6675
24.4200 511.0975
24.4500 609.2925
24.4800 642.6525
24.5100 611.3675
24.5400 557.7975
24.5700 510.9050
24.6000 665.2200
24.6300 507.2200
24.6600 608.1550
24.6900 625.0875
24.7200 615.4775
24.7500 514.2350
24.7800 628.3650
24.8100 698.4625
24.8400 719.2525
24.8700 748.2325
24.9000 645.7000
24.9300 700.7425
24.9600 753.4700
24.9900 709.7550
25.0200 793.1125
25.0500 904.4025
25.0800 1273.08
25.1100 1569.36
25.1400 1826.84
25.1700 1864.21
25.2000 1840.23
25.2300 1736.28
25.2600 1459.87
25.2900 1230.06
25.3200 786.7375
25.3500 697.0025
25.3800 710.0875
25.4100 549.7200
25.4400 566.3225
25.4700 639.8375
25.5000 787.5175
25.5300 570.4300
25.5600 646.7875
25.5900 596.8000
25.6200 673.0425
25.6500 716.6675
25.6800 795.1275
25.7100 757.2175
25.7400 933.3325
25.7700 899.9825
25.8000 934.2225
25.8300 1107.37
25.8600 1095.07
25.8900 863.5925
25.9200 999.6725
25.9500 715.2375
25.9800 839.4025
26.0100 684.8900
26.0400 837.7300
26.0700 899.6275
26.1000 919.6500
26.1300 1163.69
26.1600 1260.75
26.1900 1651.94
26.2200 1836.27
26.2500 2017.88
26.2800 1756.59
26.3100 1682.63
26.3400 1643.22
26.3700 1372.95
26.4000 1265.73
26.4300 1044.31
26.4600 775.1575
26.4900 655.3950
26.5200 930.2000
26.5500 586.2125
26.5800 736.1025
26.6100 483.2675
26.6400 605.3675
26.6700 633.5525
26.7000 589.0850
26.7300 563.9500
26.7600 661.7075
26.7900 560.2375
26.8200 710.7100
26.8500 727.3275
26.8800 758.7100
26.9100 669.3050
26.9400 679.8000
26.9700 795.4200
27.0000 1006.26
27.0300 928.7900
27.0600 1334.7
27.0900 1552.55
27.1200 1961.39
27.1500 2442.39
27.1800 2764.65
27.2100 2754.35
27.2400 2705
27.2700 2738.57
27.3000 2492.58
27.3300 2080.31
27.3600 1642.18
27.3900 1394.36
27.4200 978.1925
27.4500 857.2300
27.4800 797.4875
27.5100 661.9225
27.5400 664.2950
27.5700 545.4325
27.6000 542.7200
27.6300 604.9975
27.6600 537.5575
27.6900 668.4675
27.7200 648.3025
27.7500 692.4650
27.7800 684.1100
27.8100 771.1825
27.8400 616.6675
27.8700 753.2750
27.9000 771.1050
27.9300 867.6525
27.9600 907.4650
27.9900 1257.33
28.0200 1402.17
28.0500 1818.24
28.0800 2102.62
28.1100 2233.71
28.1400 2272.75
28.1700 1822.98
28.2000 1729.01
28.2300 1095.78
28.2600 943.8000
28.2900 787.6775
28.3200 843.2000
28.3500 746.3850
28.3800 543.4100
28.4100 620.6725
28.4400 571.3925
28.4700 702.8250
28.5000 627.4400
28.5300 668.6175
28.5600 576.3625
28.5900 548.7450
28.6200 516.6675
28.6500 618.5675
28.6800 737.1100
28.7100 761.0400
28.7400 603.7250
28.7700 718.5325
28.8000 690.6825
28.8300 764.8425
28.8600 935.1450
28.8900 942.3300
28.9200 1216.08
28.9500 1579.08
28.9800 1788.62
29.0100 2486.83
29.0400 2481.6
29.0700 2533.89
29.1000 2663.25
29.1300 2451.7
29.1600 2199.82
29.1900 1591.69
29.2200 1233.33
29.2500 1243.62
29.2800 1043.46
29.3100 895.1375
29.3400 743.5675
29.3700 700.0000
29.4000 888.0825
29.4300 842.7525
29.4600 1052.02
29.4900 1324.39
29.5200 1613.79
29.5500 1816.62
29.5800 2003.01
29.6100 2022.64
29.6400 1692.22
29.6700 1222.54
29.7000 1349.2
29.7300 924.6775
29.7600 964.7450
29.7900 812.4150
29.8200 588.9500
29.8500 766.6675
29.8800 915.2875
29.9100 958.4700
29.9400 887.3950
29.9700 1029.31
30.0000 1010.03
30.0300 877.1875
30.0600 733.3325
30.0900 790.9725
30.1200 675.6050
30.1500 497.4725
30.1800 597.4975
30.2100 480.2925
30.2400 472.7975
30.2700 615.4525
30.3000 475.0700
30.3300 567.8550
30.3600 653.5250
30.3900 787.9825
30.4200 734.4825
30.4500 846.5900
30.4800 975.4650
30.5100 716.6675
30.5400 715.5675
30.5700 616.6675
30.6000 615.5925
30.6300 551.0600
30.6600 547.9050
30.6900 632.2975
30.7200 701.0225
30.7500 710.0925
30.7800 781.3400
30.8100 718.6350
30.8400 690.1300
30.8700 659.9600
30.9000 553.7825
30.9300 632.4000
30.9600 416.6675
30.9900 516.6675
31.0200 582.4400
31.0500 436.8600
31.0800 370.1425
31.1100 419.2350
31.1400 659.0775
31.1700 501.6600
31.2000 437.4225
31.2300 572.3025
31.2600 518.2525
31.2900 666.6675
31.3200 653.0675
31.3500 627.3025
31.3800 678.1450
31.4100 634.0625
31.4400 518.8125
31.4700 577.0075
31.5000 513.2150
31.5300 548.6450
31.5600 649.3350
31.5900 582.6825
31.6200 588.4450
31.6500 616.6675
31.6800 574.6400
31.7100 700.0000
31.7400 471.9575
31.7700 434.4825
31.8000 515.5425
31.8300 431.6850
31.8600 645.1700
31.8900 404.1925
31.9200 482.3100
31.9500 506.4775
31.9800 567.1525
32.0100 583.8050
32.0400 684.7125
32.0700 782.4400
32.1000 803.0400
32.1300 900.8425
32.1600 982.1075
32.1900 784.5200
32.2200 681.8000
32.2500 761.4825
32.2800 619.1700
32.3100 416.6675
32.3400 500.9950
32.3700 632.6950
32.4000 581.4950
32.4300 517.8400
32.4600 601.4025
32.4900 619.8800
32.5200 668.4525
32.5500 715.4550
32.5800 734.0225
32.6100 765.1500
32.6400 766.2600
32.6700 583.7150
32.7000 565.2425
32.7300 682.1775
32.7600 366.6675
32.7900 433.1925
32.8200 434.0950
32.8500 417.2375
32.8800 666.1600
32.9100 467.1975
32.9400 832.1250
32.9700 400.4375
33.0000 533.2825
33.0300 583.3700
33.0600 533.2375
33.0900 500.0450
33.1200 749.9850
33.1500 999.9425
33.1800 916.6675
33.2100 983.4525
33.2400 1067.09
33.2700 1100.33
33.3000 1216.67
33.3300 983.4250
33.3600 684.2725
33.3900 832.5125
33.4200 699.6100
33.4500 682.0475
33.4800 533.3325
33.5100 467.3400
33.5400 434.6050
33.5700 466.6675
33.6000 383.9550
33.6300 566.0075
33.6600 465.5025
33.6900 433.5800
33.7200 532.0400
33.7500 515.5800
33.7800 500.2850
33.8100 484.5225
33.8400 450.9300
33.8700 600.6450
33.9000 534.6775
33.9300 759.6900
33.9600 518.1125
33.9900 663.2950
34.0200 698.4500
34.0500 864.2650
34.0800 881.2675
34.1100 1114.54
34.1400 854.3925
34.1700 900.9050
34.2000 819.4550
34.2300 551.4325
34.2600 535.7875
34.2900 565.1550
34.3200 483.8500
34.3500 515.6075
34.3800 499.4575
34.4100 511.1150
34.4400 552.8400
34.4700 629.8475
34.5000 584.5225
34.5300 500.0000
34.5600 548.7600
34.5900 552.5300
34.6200 567.9575
34.6500 665.3500
34.6800 580.6475
34.7100 730.5950
34.7400 729.1475
34.7700 731.2025
34.8000 836.2275
34.8300 787.7500
34.8600 742.3250
34.8900 943.1400
34.9200 730.2325
34.9500 519.8200
34.9800 619.8700
35.0100 568.2950
35.0400 419.1475
35.0700 448.3200
35.1000 401.7050
35.1300 318.3975
35.1600 483.3325
35.1900 486.9000
35.2200 358.1425
35.2500 438.8400
35.2800 532.4025
35.3100 466.6675
35.3400 399.0425
35.3700 352.9075
35.4000 451.9650
35.4300 560.6925
35.4600 739.9150
35.4900 763.6025
35.5200 896.8975
35.5500 904.1900
35.5800 1094.7
35.6100 980.1125
35.6400 886.5925
35.6700 721.0650
35.7000 620.0050
35.7300 678.8325
35.7600 492.4400
35.7900 529.8800
35.8200 465.5025
35.8500 628.6225
35.8800 592.8575
35.9100 639.3500
35.9400 621.5325
35.9700 1098.22
36.0000 1120.91
36.0300 1100
36.0600 1043.66
36.0900 1175.64
36.1200 812.9475
36.1500 705.2300
36.1800 823.2700
36.2100 622.0025
36.2400 729.2925
36.2700 633.3325
36.3000 705.4925
36.3300 886.1400
36.3600 998.6000
36.3900 961.0175
36.4200 866.6675
36.4500 898.5625
36.4800 909.4100
36.5100 815.2025
36.5400 654.8475
36.5700 455.9625
36.6000 519.6750
36.6300 351.5175
36.6600 424.3150
36.6900 524.3800
36.7200 537.5525
36.7500 472.3500
36.7800 484.9150
36.8100 445.2150
36.8400 408.6250
36.8700 419.9100
36.9000 434.9675
36.9300 478.3900
36.9600 463.3450
36.9900 476.6375
37.0200 585.0200
37.0500 646.6000
37.0800 650.0000
37.1100 460.3575
37.1400 629.8550
37.1700 434.1925
37.2000 491.1725
37.2300 420.2250
37.2600 527.9575
37.2900 370.2775
37.3200 307.2725
37.3500 379.4850
37.3800 583.4000
37.4100 490.7650
37.4400 514.7950
37.4700 751.8850
37.5000 744.3100
37.5300 657.6400
37.5600 624.3600
37.5900 618.6025
37.6200 631.3825
37.6500 578.4450
37.6800 760.7375
37.7100 632.0975
37.7400 677.3250
37.7700 566.6675
37.8000 606.0875
37.8300 746.2475
37.8600 578.9975
37.8900 487.4700
37.9200 400.0000
37.9500 366.6675
37.9800 381.2250
38.0100 366.6675
38.0400 306.4025
38.0700 327.4050
38.1000 397.8400
38.1300 503.6225
38.1600 464.4800
38.1900 378.9325
38.2200 343.3600
38.2500 318.8925
38.2800 381.0925
38.3100 314.4125
38.3400 385.6000
38.3700 431.0525
38.4000 531.0400
38.4300 648.2150
38.4600 485.6525
38.4900 616.3300
38.5200 716.6675
38.5500 702.5100
38.5800 711.9800
38.6100 692.8775
38.6400 511.9950
38.6700 600.2200
38.7000 497.8875
38.7300 483.3325
38.7600 383.8325
38.7900 459.2700
38.8200 345.7275
38.8500 530.8400
38.8800 340.8500
38.9100 442.4450
38.9400 513.0775
38.9700 430.7875
39.0000 507.6750
39.0300 428.1900
39.0600 430.7475
39.0900 671.4150
39.1200 695.7725
39.1500 652.6250
39.1800 666.6675
39.2100 610.6075
39.2400 454.6550
39.2700 550.0000
39.3000 675.2575
39.3300 494.5900
39.3600 449.6450
39.3900 388.5225
39.4200 411.1750
39.4500 563.9075
39.4800 450.0000
39.5100 352.8300
39.5400 333.3325
39.5700 322.2900
39.6000 419.4925
39.6300 435.8050
39.6600 455.2575
39.6900 413.8000
39.7200 485.6050
39.7500 552.8925
39.7800 542.0500
39.8100 752.0700
39.8400 744.1350
39.8700 900.9275
39.9000 940.0325
39.9300 686.3050
39.9600 645.7625
39.9900 666.6675
40.0000 666.6675